participant_id	trial	correct	response_time	length
test1	0	0	1.163934	4
test1	1	1	0.2982192	8
NaN	NaN	NaN	NaN	NaN
NaN	NaN	NaN	NaN	NaN
NaN	NaN	NaN	NaN	NaN
NaN	NaN	NaN	NaN	NaN
NaN	NaN	NaN	NaN	NaN
NaN	NaN	NaN	NaN	NaN
NaN	NaN	NaN	NaN	NaN
NaN	NaN	NaN	NaN	NaN
NaN	NaN	NaN	NaN	NaN
NaN	NaN	NaN	NaN	NaN
NaN	NaN	NaN	NaN	NaN
NaN	NaN	NaN	NaN	NaN
NaN	NaN	NaN	NaN	NaN
NaN	NaN	NaN	NaN	NaN
NaN	NaN	NaN	NaN	NaN
NaN	NaN	NaN	NaN	NaN
NaN	NaN	NaN	NaN	NaN
NaN	NaN	NaN	NaN	NaN
NaN	NaN	NaN	NaN	NaN
NaN	NaN	NaN	NaN	NaN
NaN	NaN	NaN	NaN	NaN
NaN	NaN	NaN	NaN	NaN
NaN	NaN	NaN	NaN	NaN
NaN	NaN	NaN	NaN	NaN
NaN	NaN	NaN	NaN	NaN
NaN	NaN	NaN	NaN	NaN
NaN	NaN	NaN	NaN	NaN
NaN	NaN	NaN	NaN	NaN
