participant_id	trial	correct	response_time	length
NaN	NaN	NaN	NaN	NaN
NaN	NaN	NaN	NaN	NaN
NaN	NaN	NaN	NaN	NaN
NaN	NaN	NaN	NaN	NaN
NaN	NaN	NaN	NaN	NaN
NaN	NaN	NaN	NaN	NaN
NaN	NaN	NaN	NaN	NaN
NaN	NaN	NaN	NaN	NaN
NaN	NaN	NaN	NaN	NaN
NaN	NaN	NaN	NaN	NaN
NaN	NaN	NaN	NaN	NaN
NaN	NaN	NaN	NaN	NaN
NaN	NaN	NaN	NaN	NaN
NaN	NaN	NaN	NaN	NaN
NaN	NaN	NaN	NaN	NaN
NaN	NaN	NaN	NaN	NaN
NaN	NaN	NaN	NaN	NaN
NaN	NaN	NaN	NaN	NaN
NaN	NaN	NaN	NaN	NaN
NaN	NaN	NaN	NaN	NaN
NaN	NaN	NaN	NaN	NaN
NaN	NaN	NaN	NaN	NaN
NaN	NaN	NaN	NaN	NaN
NaN	NaN	NaN	NaN	NaN
NaN	NaN	NaN	NaN	NaN
NaN	NaN	NaN	NaN	NaN
NaN	NaN	NaN	NaN	NaN
NaN	NaN	NaN	NaN	NaN
NaN	NaN	NaN	NaN	NaN
NaN	NaN	NaN	NaN	NaN
