participant_id	trial	speed	response_time	correct
test1	0	11.66667	0.6519508	1
test1	1	11.66667	0.4888821	1
NaN	NaN	NaN	NaN	NaN
NaN	NaN	NaN	NaN	NaN
NaN	NaN	NaN	NaN	NaN
NaN	NaN	NaN	NaN	NaN
NaN	NaN	NaN	NaN	NaN
NaN	NaN	NaN	NaN	NaN
NaN	NaN	NaN	NaN	NaN
NaN	NaN	NaN	NaN	NaN
NaN	NaN	NaN	NaN	NaN
NaN	NaN	NaN	NaN	NaN
NaN	NaN	NaN	NaN	NaN
NaN	NaN	NaN	NaN	NaN
NaN	NaN	NaN	NaN	NaN
NaN	NaN	NaN	NaN	NaN
NaN	NaN	NaN	NaN	NaN
NaN	NaN	NaN	NaN	NaN
NaN	NaN	NaN	NaN	NaN
NaN	NaN	NaN	NaN	NaN
NaN	NaN	NaN	NaN	NaN
NaN	NaN	NaN	NaN	NaN
NaN	NaN	NaN	NaN	NaN
NaN	NaN	NaN	NaN	NaN
